Folder: XRD/XRD_csv (part 2)

File: OPCM- 21 D 2.csv
Angle,Intensity
5.99618,904
6.28027,771
6.56436,758
6.84845,690
7.13254,600
7.41664,599
7.70073,558
7.98482,571
8.26891,499
8.553,491
8.83709,530
9.12119,561
9.40528,542
9.68937,505
9.97346,504
10.2576,467
10.5416,436
10.8257,446
11.1098,446
11.3939,423
11.678,412
11.9621,399
12.2462,382
12.5303,323
12.8144,310
13.0985,322
13.3826,352
13.6667,356
13.9507,331
14.2348,295
14.5189,297
14.803,279
15.0871,295
15.3712,292
15.6553,295
15.9394,292
16.2235,280
16.5076,258
16.7917,251
17.0757,264
17.3598,293
17.6439,285
17.928,518
18.2121,294
18.4962,243
18.7803,264
19.0644,284
19.3485,258
19.6326,249
19.9167,248
20.2008,224
20.4848,185
20.7689,903
21.053,386
21.3371,241
21.6212,229
21.9053,231
22.1894,239
22.4735,239
22.7576,228
23.0417,324
23.3258,239
23.6099,227
23.8939,198
24.178,235
24.4621,224
24.7462,228
25.0303,201
25.3144,196
25.5985,286
25.8826,217
26.1667,243
26.4508,514
26.7349,503
27.019,265
27.303,526
27.5871,454
27.8712,369
28.1553,259
28.4394,302
28.7235,344
29.0076,265
29.2917,449
29.5758,337
29.8599,291
30.144,337
30.4281,283
30.7121,310
30.9962,238
31.2803,274
31.5644,214
31.8485,242
32.1326,427
32.4167,248
32.7008,244
32.9849,216
33.269,230
33.5531,243
33.8372,358
34.1212,838
34.4053,273
34.6894,209
34.9735,244
35.2576,238
35.5417,246
35.8258,207
36.1099,199
36.394,182
36.6781,198
36.9622,171
37.2463,180
37.5303,158
37.8144,155
38.0985,150
38.3826,137
38.6667,179
38.9508,145
39.2349,186
39.519,220
39.8031,148
40.0872,166
40.3713,175
40.6553,183
40.9394,193
41.2235,201
41.5076,163
41.7917,235
42.0758,164
42.3599,173
42.644,180
42.9281,190
43.2122,231
43.4963,209
43.7804,174
44.0644,167
44.3485,168
44.6326,171
44.9167,130
45.2008,152
45.4849,196
45.769,236
46.0531,160
46.3372,163
46.6213,134
46.9054,195
47.1895,356
47.4735,211
47.7576,148
48.0417,126
48.3258,152
48.6099,180
48.894,155
49.1781,154
49.4622,141
49.7463,135
50.0304,187
50.3145,354
50.5986,203
50.8826,250
51.1667,157
51.4508,130
51.7349,129
52.019,130
52.3031,105
52.5872,136
52.8713,111
53.1554,137
53.4395,158
53.7236,121
54.0077,152
54.2917,260
54.5758,134
54.8599,156
55.144,154
55.4281,152
55.7122,114
55.9963,128
56.2804,144
56.5645,135
56.8486,151
57.1327,145
57.4168,137
57.7008,115
57.9849,145
58.269,137
58.5531,163
58.8372,154
59.1213,137
59.4054,111
59.6895,139
59.9736,242
60.2577,144
60.5418,121
60.8259,146
61.1099,262
61.394,143
61.6781,130
61.9622,129
62.2463,147
62.5304,166
62.8145,152
63.0986,177
63.3827,133
63.6668,109
63.9509,154
64.235,150
64.519,139
64.8031,104
65.0872,124
65.3713,124
65.6554,119
65.9395,129
66.2236,124
66.5077,122
66.7918,108
67.0759,131
67.36,112
67.644,143
67.9281,217
68.2122,200
68.4963,256
68.7804,110
69.0645,114
69.3486,100
69.6327,122
69.9168,110
70.2009,126
70.485,107
70.7691,83
71.0531,118
71.3372,107
71.6213,113
71.9054,140
72.1895,108
72.4736,133
72.7577,114
73.0418,94
73.3259,132
73.61,108
73.8941,86
74.1782,113
74.4622,112
74.7463,135
75.0304,108
75.3145,84
75.5986,126
75.8827,115
76.1668,99
76.4509,90
76.735,115
77.0191,104
77.3032,110
77.5873,119
77.8713,107
78.1554,100
78.4395,87
78.7236,88
79.0077,119
79.2918,103
79.5759,92
79.86,133
80.1441,93
80.4282,92
80.7123,103
80.9964,112
81.2804,110
81.5645,114
81.8486,122
82.1327,119
82.4168,107
82.7009,98
82.985,123
83.2691,84
83.5532,110
83.8373,129
84.1214,111
84.4055,119
84.6895,115
84.9736,104
85.2577,89
85.5418,101
85.8259,84
86.11,93
86.3941,96
86.6782,93
86.9623,104
87.2464,89
87.5305,89
87.8146,93
88.0986,116
88.3827,109
88.6668,88
88.9509,115
89.235,99
89.5191,96
89.8032,112
89.9954,98