Folder: XRD/XRD_csv

Note: README.md
# INTRODUCTION
This report explores the application of machine learning techniques to automate the
classification of peaks in XRD patterns, enabling efficient and accurate material
characterisation. The process involves data preparation, feature extraction, clustering for
auto-labelling, model training, and the classification of new XRD patterns. By leveraging
machine learning algorithms, engineers can streamline material analysis, enhance quality
control, and advance research in civil engineering.
X-ray powder diffraction (XRD) is a rapid analytical technique primarily used for phase
identification of a crystalline material and can provide information on unit cell dimensions.
The analysed material is finely ground, homogenised, and average bulk composition is
determined.

# DATASET DESCRIPTION
To embark on this study, a diverse collection of XRD patterns from civil engineering
materials was compiled. The patterns, stored as CSV files, include the "Angle" (scattering
angle) and "Intensity" (diffraction intensity) columns. These files were organized in the
"XRD_csv" folder for easy access and systematic analysis.
## Auto Labeling:
1. To streamline the peak classification process, the dataset underwent auto-labeling.
A clustering algorithm, specifically KMeans clustering, was employed to group XRD patterns
with similar characteristics into clusters. The number of clusters was set to three, representing
three distinct peak types that may correspond to different materials or phases. The cluster
labels were used as auto-generated ground truth labels for model training.
## New XRD Pattern:
1. As a real-world demonstration, a new XRD pattern named "OPCM-14D 2.csv" was
introduced into the dataset. The features of this pattern were extracted using the same
methodology as the other patterns. The trained classifier then predicted the type of peaks in
this new pattern, providing valuable insights into its material composition and structure

## DATASET DETAILS
Number of XRD Patterns: The dataset comprises a collection of XRD patterns from a diverse
range of civil engineering materials. It includes concrete, cement, clay minerals, soil samples,
and other construction materials.
1. File Format: Each XRD pattern is stored as a CSV (Comma-Separated Values) file.
Each file contains two columns: "Angle" and "Intensity." The "Angle" column represents the
scattering angle of the diffracted X-rays, while the "Intensity" column corresponds to the
intensity of the diffraction peaks at different angles.
2. File Organization: All CSV files are organized in a folder named "XRD_csv" to
ensure easy access and systematic analysis.

# Algorithm Description:
The algorithm employed in this study aims to automate the peak classification in X-ray
diffraction (XRD) patterns obtained from various construction materials used in civil
engineering. The goal is to accurately identify different peak types in the XRD patterns,
corresponding to different materials or phases, using machine 

File: CCM-14D 1.csv
Angle,Intensity
5.99618,888
6.28027,814
6.56436,766
6.84845,644
7.13254,625
7.41664,604
7.70073,564
7.98482,572
8.26891,536
8.553,532
8.83709,517
9.12119,629
9.40528,500
9.68937,496
9.97346,481
10.2576,445
10.5416,429
10.8257,465
11.1098,459
11.3939,416
11.678,401
11.9621,356
12.2462,406
12.5303,339
12.8144,358
13.0985,348
13.3826,335
13.6667,414
13.9507,321
14.2348,306
14.5189,302
14.803,291
15.0871,302
15.3712,336
15.6553,342
15.9394,322
16.2235,332
16.5076,339
16.7917,284
17.0757,267
17.3598,271
17.6439,267
17.928,333
18.2121,311
18.4962,239
18.7803,283
19.0644,288
19.3485,272
19.6326,282
19.9167,285
20.2008,244
20.4848,233
20.7689,353
21.053,354
21.3371,238
21.6212,250
21.9053,261
22.1894,284
22.4735,260
22.7576,278
23.0417,332
23.3258,280
23.6099,333
23.8939,261
24.178,253
24.4621,250
24.7462,282
25.0303,282
25.3144,230
25.5985,308
25.8826,286
26.1667,279
26.4508,553
26.7349,1689
27.019,401
27.303,451
27.5871,523
27.8712,348
28.1553,369
28.4394,273
28.7235,283
29.0076,283
29.2917,417
29.5758,364
29.8599,296
30.144,280
30.4281,292
30.7121,285
30.9962,310
31.2803,263
31.5644,248
31.8485,231
32.1326,345
32.4167,297
32.7008,312
32.9849,248
33.269,241
33.5531,242
33.8372,282
34.1212,348
34.4053,226
34.6894,236
34.9735,231
35.2576,238
35.5417,220
35.8258,199
36.1099,211
36.394,180
36.6781,252
36.9622,225
37.2463,182
37.5303,195
37.8144,203
38.0985,186
38.3826,183
38.6667,185
38.9508,185
39.2349,208
39.519,304
39.8031,177
40.0872,157
40.3713,201
40.6553,183
40.9394,228
41.2235,220
41.5076,178
41.7917,204
42.0758,207
42.3599,176
42.644,192
42.9281,190
43.2122,176
43.4963,186
43.7804,176
44.0644,200
44.3485,212
44.6326,168
44.9167,158
45.2008,144
45.4849,150
45.769,264
46.0531,157
46.3372,172
46.6213,180
46.9054,168
47.1895,226
47.4735,185
47.7576,165
48.0417,183
48.3258,204
48.6099,172
48.894,166
49.1781,156
49.4622,162
49.7463,161
50.0304,206
50.3145,193
50.5986,214
50.8826,167
51.1667,163
51.4508,143
51.7349,157
52.019,142
52.3031,152
52.5872,129
52.8713,136
53.1554,145
53.4395,155
53.7236,146
54.0077,156
54.2917,143
54.5758,154
54.8599,164
55.144,175
55.4281,163
55.7122,115
55.9963,164
56.2804,124
56.5645,161
56.8486,157
57.1327,143
57.4168,150
57.7008,152
57.9849,131
58.269,131
58.5531,145
58.8372,167
59.1213,114
59.4054,134
59.6895,135
59.9736,676
60.2577,142
60.5418,167
60.8259,133
61.1099,129
61.394,125
61.6781,141
61.9622,128
62.2463,130
62.5304,163
62.8145,130
63.0986,143
63.3827,126
63.6668,125
63.9509,144
64.235,136
64.519,137
64.8031,142
65.0872,129
65.3713,109
65.6554,131
65.9395,140
66.2236,126
66.5077,111
66.7918,120
67.0759,141
67.36,111
67.644,133
67.9281,175
68.2122,216
68.4963,203
68.7804,103
69.0645,125
69.3486,120
69.6327,132
69.9168,124
70.2009,99
70.485,120
70.7691,111
71.0531,122
71.3372,116
71.6213,130
71.9054,107
72.1895,112
72.4736,99
72.7577,118
73.0418,99
73.3259,121
73.61,111
73.8941,135
74.1782,116
74.4622,107
74.7463,102
75.0304,131
75.3145,120
75.5986,122
75.8827,118
76.1668,105
76.4509,123
76.735,93
77.0191,104
77.3032,103
77.5873,105
77.8713,107
78.1554,111
78.4395,101
78.7236,97
79.0077,98
79.2918,105
79.5759,96
79.86,130
80.1441,123
80.4282,93
80.7123,109
80.9964,121
81.2804,108
81.5645,123
81.8486,110
82.1327,102
82.4168,104
82.7009,90
82.985,107
83.2691,104
83.5532,103
83.8373,142
84.1214,112
84.4055,105
84.6895,87
84.9736,97
85.2577,100
85.5418,101
85.8259,100
86.11,107
86.3941,92
86.6782,92
86.9623,91
87.2464,94
87.5305,105
87.8146,91
88.0986,90
88.3827,104
88.6668,83
88.9509,96
89.235,98
89.5191,119
89.8032,91
89.9954,129

File: CCM-14D 2.csv
Angle,Intensity
5.99618,818
6.28027,740
6.56436,679
6.84845,683
7.13254,597
7.41664,545
7.70073,570
7.98482,553
8.26891,480
8.553,516
8.83709,544
9.12119,626
9.40528,475
9.68937,435
9.97346,485
10.2576,425
10.5416,422
10.8257,444
11.1098,420
11.3939,414
11.678,389
11.9621,369
12.2462,338
12.5303,342
12.8144,326
13.0985,404
13.3826,334
13.6667,352
13.9507,327
14.2348,313
14.5189,281
14.803,284
15.0871,308
15.3712,292
15.6553,299
15.9394,318
16.2235,324
16.5076,284
16.7917,296
17.0757,291
17.3598,251
17.6439,257
17.928,336
18.2121,278
18.4962,271
18.7803,270
19.0644,252
19.3485,270
19.6326,230
19.9167,272
20.2008,290
20.4848,264
20.7689,463
21.053,304
21.3371,232
21.6212,243
21.9053,214
22.1894,257
22.4735,230
22.7576,282
23.0417,344
23.3258,276
23.6099,357
23.8939,264
24.178,272
24.4621,246
24.7462,289
25.0303,233
25.3144,238
25.5985,290
25.8826,286
26.1667,336
26.4508,477
26.7349,1782
27.019,336
27.303,321
27.5871,325
27.8712,587
28.1553,314
28.4394,262
28.7235,312
29.0076,316
29.2917,360
29.5758,355
29.8599,278
30.144,321
30.4281,269
30.7121,310
30.9962,332
31.2803,251
31.5644,267
31.8485,243
32.1326,337
32.4167,299
32.7008,285
32.9849,257
33.269,271
33.5531,282
33.8372,268
34.1212,334
34.4053,259
34.6894,231
34.9735,249
35.2576,281
35.5417,233
35.8258,220
36.1099,246
36.394,267
36.6781,387
36.9622,196
37.2463,200
37.5303,190
37.8144,185
38.0985,178
38.3826,183
38.6667,198
38.9508,184
39.2349,196
39.519,290
39.8031,164
40.0872,178
40.3713,197
40.6553,205
40.9394,232
41.2235,204
41.5076,171
41.7917,210
42.0758,177
42.3599,198
42.644,175
42.9281,176
43.2122,175
43.4963,160
43.7804,186
44.0644,196
44.3485,168
44.6326,167
44.9167,172
45.2008,162
45.4849,175
45.769,243
46.0531,144
46.3372,162
46.6213,165
46.9054,152
47.1895,193
47.4735,188
47.7576,147
48.0417,157
48.3258,160
48.6099,165
48.894,203
49.1781,208
49.4622,167
49.7463,180
50.0304,246
50.3145,204
50.5986,168
50.8826,179
51.1667,136
51.4508,120
51.7349,136
52.019,131
52.3031,136
52.5872,148
52.8713,165
53.1554,141
53.4395,169
53.7236,152
54.0077,146
54.2917,166
54.5758,139
54.8599,165
55.144,172
55.4281,154
55.7122,151
55.9963,137
56.2804,136
56.5645,129
56.8486,126
57.1327,139
57.4168,141
57.7008,148
57.9849,125
58.269,146
58.5531,153
58.8372,156
59.1213,139
59.4054,146
59.6895,153
59.9736,336
60.2577,156
60.5418,160
60.8259,140
61.1099,132
61.394,133
61.6781,153
61.9622,140
62.2463,126
62.5304,153
62.8145,128
63.0986,151
63.3827,122
63.6668,115
63.9509,148
64.235,135
64.519,102
64.8031,131
65.0872,109
65.3713,146
65.6554,137
65.9395,141
66.2236,143
66.5077,118
66.7918,131
67.0759,125
67.36,119
67.644,141
67.9281,182
68.2122,143
68.4963,160
68.7804,109
69.0645,119
69.3486,113
69.6327,134
69.9168,132
70.2009,123
70.485,124
70.7691,115
71.0531,114
71.3372,116
71.6213,100
71.9054,126
72.1895,113
72.4736,105
72.7577,103
73.0418,112
73.3259,112
73.61,105
73.8941,110
74.1782,116
74.4622,120
74.7463,116
75.0304,121
75.3145,115
75.5986,143
75.8827,130
76.1668,113
76.4509,96
76.735,112
77.0191,100
77.3032,120
77.5873,367
77.8713,365
78.1554,101
78.4395,118
78.7236,107
79.0077,97
79.2918,119
79.5759,89
79.86,123
80.1441,118
80.4282,101
80.7123,113
80.9964,126
81.2804,123
81.5645,108
81.8486,109
82.1327,123
82.4168,93
82.7009,110
82.985,92
83.2691,94
83.5532,97
83.8373,110
84.1214,122
84.4055,97
84.6895,92
84.9736,98
85.2577,102
85.5418,93
85.8259,86
86.11,108
86.3941,87
86.6782,87
86.9623,94
87.2464,111
87.5305,101
87.8146,101
88.0986,89
88.3827,99
88.6668,111
88.9509,103
89.235,96
89.5191,76
89.8032,87
89.9954,89

File: OPC-3D 2.csv
Angle,Intensity
5.99618,720
6.28027,681
6.56436,662
6.84845,584
7.13254,498
7.41664,518
7.70073,504
7.98482,495
8.26891,457
8.553,445
8.83709,440
9.12119,470
9.40528,438
9.68937,374
9.97346,364
10.2576,344
10.5416,381
10.8257,325
11.1098,340
11.3939,322
11.678,322
11.9621,307
12.2462,339
12.5303,271
12.8144,270
13.0985,307
13.3826,247
13.6667,313
13.9507,265
14.2348,252
14.5189,256
14.803,258
15.0871,222
15.3712,239
15.6553,240
15.9394,242
16.2235,207
16.5076,209
16.7917,211
17.0757,203
17.3598,183
17.6439,205
17.928,247
18.2121,269
18.4962,209
18.7803,203
19.0644,173
19.3485,186
19.6326,185
19.9167,160
20.2008,175
20.4848,180
20.7689,174
21.053,172
21.3371,150
21.6212,172
21.9053,153
22.1894,166
22.4735,163
22.7576,169
23.0417,167
23.3258,196
23.6099,189
23.8939,167
24.178,143
24.4621,174
24.7462,135
25.0303,173
25.3144,155
25.5985,200
25.8826,163
26.1667,172
26.4508,215
26.7349,13175
27.019,200
27.303,162
27.5871,199
27.8712,152
28.1553,177
28.4394,150
28.7235,210
29.0076,140
29.2917,206
29.5758,225
29.8599,144
30.144,154
30.4281,164
30.7121,171
30.9962,122
31.2803,112
31.5644,136
31.8485,126
32.1326,179
32.4167,146
32.7008,145
32.9849,144
33.269,113
33.5531,155
33.8372,162
34.1212,400
34.4053,165
34.6894,112
34.9735,377
35.2576,368
35.5417,316
35.8258,174
36.1099,120
36.394,87
36.6781,102
36.9622,98
37.2463,122
37.5303,100
37.8144,98
38.0985,88
38.3826,93
38.6667,101
38.9508,79
39.2349,82
39.519,142
39.8031,102
40.0872,82
40.3713,82
40.6553,108
40.9394,103
41.2235,112
41.5076,73
41.7917,84
42.0758,86
42.3599,100
42.644,110
42.9281,99
43.2122,113
43.4963,79
43.7804,79
44.0644,104
44.3485,69
44.6326,96
44.9167,82
45.2008,86
45.4849,80
45.769,111
46.0531,79
46.3372,66
46.6213,97
46.9054,93
47.1895,220
47.4735,141
47.7576,96
48.0417,69
48.3258,78
48.6099,84
48.894,59
49.1781,83
49.4622,78
49.7463,82
50.0304,101
50.3145,102
50.5986,116
50.8826,175
51.1667,94
51.4508,84
51.7349,108
52.019,65
52.3031,58
52.5872,77
52.8713,82
53.1554,89
53.4395,64
53.7236,84
54.0077,67
54.2917,98
54.5758,84
54.8599,79
55.144,83
55.4281,153
55.7122,91
55.9963,78
56.2804,79
56.5645,75
56.8486,73
57.1327,77
57.4168,88
57.7008,88
57.9849,75
58.269,78
58.5531,69
58.8372,84
59.1213,71
59.4054,87
59.6895,93
59.9736,779
60.2577,261
60.5418,98
60.8259,75
61.1099,76
61.394,76
61.6781,72
61.9622,75
62.2463,82
62.5304,75
62.8145,73
63.0986,107
63.3827,171
63.6668,77
63.9509,80
64.235,135
64.519,89
64.8031,93
65.0872,90
65.3713,72
65.6554,78
65.9395,65
66.2236,72
66.5077,83
66.7918,50
67.0759,65
67.36,68
67.644,73
67.9281,89
68.2122,83
68.4963,89
68.7804,78
69.0645,81
69.3486,75
69.6327,61
69.9168,68
70.2009,68
70.485,78
70.7691,99
71.0531,164
71.3372,98
71.6213,80
71.9054,87
72.1895,77
72.4736,68
72.7577,98
73.0418,121
73.3259,699
73.61,294
73.8941,344
74.1782,145
74.4622,83
74.7463,65
75.0304,76
75.3145,97
75.5986,54
75.8827,49
76.1668,82
76.4509,82
76.735,84
77.0191,69
77.3032,61
77.5873,60
77.8713,51
78.1554,77
78.4395,77
78.7236,76
79.0077,67
79.2918,69
79.5759,84
79.86,148
80.1441,157
80.4282,59
80.7123,58
80.9964,69
81.2804,73
81.5645,72
81.8486,82
82.1327,75
82.4168,77
82.7009,91
82.985,81
83.2691,54
83.5532,93
83.8373,179
84.1214,137
84.4055,79
84.6895,78
84.9736,71
85.2577,71
85.5418,47
85.8259,58
86.11,54
86.3941,62
86.6782,64
86.9623,75
87.2464,47
87.5305,52
87.8146,57
88.0986,67
88.3827,62
88.6668,58
88.9509,58
89.235,65
89.5191,64
89.8032,52
89.9954,61

File: OPCM-14D 1.csv
Angle,Intensity
6.00018,702
6.38454,601
6.7689,531
7.15326,475
7.53761,432
7.92197,421
8.30633,419
8.69069,394
9.07505,414
9.45941,372
9.84377,369
10.2281,370
10.6125,331
10.9968,377
11.3812,351
11.7656,318
12.1499,292
12.5343,281
12.9186,260
13.303,283
13.6874,434
14.0717,284
14.4561,242
14.8404,244
15.2248,227
15.6092,252
15.9935,197
16.3779,207
16.7622,218
17.1466,207
17.531,231
17.9153,332
18.2997,199
18.684,198
19.0684,206
19.4527,207
19.8371,231
20.2215,196
20.6058,179
20.9902,309
21.3745,175
21.7589,169
22.1433,208
22.5276,203
22.912,231
23.2963,216
23.6807,174
24.0651,194
24.4494,194
24.8338,167
25.2181,169
25.6025,285
25.9869,196
26.3712,294
26.7556,1917
27.1399,272
27.5243,2663
27.9087,625
28.293,197
28.6774,301
29.0617,245
29.4461,533
29.8304,245
30.2148,294
30.5992,217
30.9835,225
31.3679,193
31.7522,193
32.1366,296
32.521,246
32.9053,166
33.2897,187
33.674,225
34.0584,562
34.4428,203
34.8271,185
35.2115,184
35.5958,181
35.9802,171
36.3646,133
36.7489,150
37.1333,141
37.5176,139
37.902,142
38.2863,137
38.6707,137
39.0551,136
39.4394,271
39.8238,119
40.2081,132
40.5925,144
40.9769,138
41.3612,156
41.7456,193
42.1299,123
42.5143,150
42.8987,226
43.283,159
43.6674,146
44.0517,146
44.4361,120
44.8205,133
45.2048,109
45.5892,150
45.9735,141
46.3579,122
46.7423,128
47.1266,375
47.511,166
47.8953,133
48.2797,129
48.664,144
49.0484,132
49.4328,135
49.8171,135
50.2015,171
50.5858,142
50.9702,232
51.3546,118
51.7389,126
52.1233,109
52.5076,137
52.892,125
53.2764,110
53.6607,121
54.0451,103
54.4294,159
54.8138,130
55.1982,128
55.5825,118
55.9669,96
56.3512,118
56.7356,101
57.1199,116
57.5043,120
57.8887,121
58.273,93
58.6574,125
59.0417,111
59.4261,91
59.8105,133
60.1948,117
60.5792,107
60.9635,91
61.3479,93
61.7323,92
62.1166,114
62.501,147
62.8853,91
63.2697,90
63.6541,75
64.0384,178
64.4228,121
64.8071,102
65.1915,107
65.5759,99
65.9602,112
66.3446,90
66.7289,104
67.1133,90
67.4976,82
67.882,119
68.2664,156
68.6507,84
69.0351,110
69.4194,98
69.8038,88
70.1882,103
70.5725,110
70.9569,114
71.3412,110
71.7256,107
72.11,97
72.4943,133
72.8787,85
73.263,96
73.6474,96
74.0318,94
74.4161,83
74.8005,68
75.1848,96
75.5692,99
75.9536,106
76.3379,83
76.7223,96
77.1066,92
77.491,88
77.8753,96
78.2597,117
78.6441,87
79.0284,97
79.4128,85
79.7971,104
80.1815,83
80.5659,88
80.9502,92
81.3346,90
81.7189,98
82.1033,80
82.4877,88
82.872,85
83.2564,94
83.6407,100
84.0251,104
84.4095,74
84.7938,110
85.1782,104
85.5625,90
85.9469,69
86.3312,90
86.7156,83
87.1,66
87.4843,98
87.8687,69
88.253,74
88.6374,80
89.0218,59
89.4061,98
89.7905,94
90.1748,93
90.5592,74
90.9436,96
91.3279,79
91.7123,73
92.0966,79
92.481,77
92.8654,89
93.2497,88
93.6341,78
94.0184,82
94.4028,93
94.7872,74
95.1715,89
95.5559,65
95.9402,94
96.3246,89
96.7089,72
97.0933,81
97.4777,91
97.862,75
98.2464,82
98.6307,100
99.0151,102
99.3995,120
99.7838,69
100.168,84
100.553,66
100.937,79
101.321,73
101.706,81
102.09,84
102.474,84
102.859,69
103.243,64
103.627,69
104.012,85
104.396,88
104.78,74
105.165,70
105.549,75
105.934,77
106.318,78
106.702,98
107.087,82
107.471,88
107.855,84
108.24,65
108.624,82
109.008,91
109.393,79
109.777,66
110.162,73
110.546,72
110.93,63
111.315,65
111.699,75
112.083,90
112.468,70
112.852,87
113.236,80
113.621,73
114.005,92
114.389,68
114.774,88
115.158,98
115.543,60
115.927,80
116.311,55
116.696,80
117.08,79
117.464,84
117.849,94
118.233,119
118.617,92
119.002,93
119.386,78
119.77,93
119.996,75

File: OPCM-14D 2.csv
Angle,Intensity
5.99618,839
6.28027,738
6.56436,689
6.84845,630
7.13254,578
7.41664,567
7.70073,468
7.98482,514
8.26891,502
8.553,508
8.83709,496
9.12119,531
9.40528,421
9.68937,459
9.97346,434
10.2576,409
10.5416,392
10.8257,430
11.1098,397
11.3939,388
11.678,388
11.9621,335
12.2462,379
12.5303,345
12.8144,352
13.0985,338
13.3826,317
13.6667,393
13.9507,344
14.2348,289
14.5189,301
14.803,306
15.0871,250
15.3712,312
15.6553,265
15.9394,299
16.2235,243
16.5076,257
16.7917,270
17.0757,249
17.3598,207
17.6439,268
17.928,345
18.2121,404
18.4962,294
18.7803,268
19.0644,233
19.3485,214
19.6326,249
19.9167,212
20.2008,235
20.4848,244
20.7689,866
21.053,384
21.3371,246
21.6212,209
21.9053,219
22.1894,240
22.4735,235
22.7576,227
23.0417,302
23.3258,295
23.6099,231
23.8939,206
24.178,291
24.4621,243
24.7462,215
25.0303,198
25.3144,194
25.5985,252
25.8826,227
26.1667,230
26.4508,401
26.7349,1842
27.019,300
27.303,315
27.5871,468
27.8712,417
28.1553,314
28.4394,242
28.7235,359
29.0076,289
29.2917,353
29.5758,485
29.8599,254
30.144,282
30.4281,261
30.7121,240
30.9962,243
31.2803,237
31.5644,231
31.8485,220
32.1326,372
32.4167,273
32.7008,299
32.9849,209
33.269,193
33.5531,273
33.8372,285
34.1212,869
34.4053,318
34.6894,219
34.9735,214
35.2576,216
35.5417,176
35.8258,187
36.1099,198
36.394,164
36.6781,249
36.9622,173
37.2463,174
37.5303,169
37.8144,156
38.0985,141
38.3826,144
38.6667,187
38.9508,146
39.2349,151
39.519,345
39.8031,176
40.0872,146
40.3713,162
40.6553,142
40.9394,200
41.2235,212
41.5076,163
41.7917,165
42.0758,167
42.3599,249
42.644,448
42.9281,176
43.2122,180
43.4963,169
43.7804,152
44.0644,194
44.3485,126
44.6326,178
44.9167,166
45.2008,163
45.4849,232
45.769,206
46.0531,166
46.3372,154
46.6213,174
46.9054,180
47.1895,451
47.4735,221
47.7576,188
48.0417,144
48.3258,155
48.6099,182
48.894,201
49.1781,176
49.4622,135
49.7463,235
50.0304,167
50.3145,211
50.5986,347
50.8826,272
51.1667,158
51.4508,160
51.7349,160
52.019,150
52.3031,141
52.5872,136
52.8713,139
53.1554,139
53.4395,144
53.7236,123
54.0077,124
54.2917,156
54.5758,165
54.8599,151
55.144,162
55.4281,162
55.7122,134
55.9963,125
56.2804,143
56.5645,129
56.8486,107
57.1327,133
57.4168,164
57.7008,120
57.9849,143
58.269,133
58.5531,148
58.8372,119
59.1213,136
59.4054,160
59.6895,112
59.9736,370
60.2577,152
60.5418,118
60.8259,147
61.1099,120
61.394,136
61.6781,126
61.9622,116
62.2463,112
62.5304,136
62.8145,145
63.0986,102
63.3827,126
63.6668,124
63.9509,111
64.235,171
64.519,141
64.8031,123
65.0872,109
65.3713,113
65.6554,103
65.9395,147
66.2236,120
66.5077,102
66.7918,115
67.0759,99
67.36,116
67.644,113
67.9281,155
68.2122,350
68.4963,119
68.7804,101
69.0645,120
69.3486,87
69.6327,113
69.9168,121
70.2009,122
70.485,96
70.7691,104
71.0531,111
71.3372,107
71.6213,194
71.9054,156
72.1895,107
72.4736,115
72.7577,88
73.0418,111
73.3259,123
73.61,130
73.8941,135
74.1782,114
74.4622,100
74.7463,76
75.0304,93
75.3145,104
75.5986,105
75.8827,151
76.1668,128
76.4509,101
76.735,121
77.0191,93
77.3032,93
77.5873,102
77.8713,122
78.1554,100
78.4395,93
78.7236,87
79.0077,81
79.2918,107
79.5759,97
79.86,103
80.1441,124
80.4282,82
80.7123,101
80.9964,94
81.2804,120
81.5645,125
81.8486,110
82.1327,92
82.4168,100
82.7009,90
82.985,107
83.2691,89
83.5532,109
83.8373,196
84.1214,141
84.4055,97
84.6895,122
84.9736,113
85.2577,91
85.5418,103
85.8259,109
86.11,109
86.3941,115
86.6782,101
86.9623,108
87.2464,99
87.5305,99
87.8146,110
88.0986,101
88.3827,101
88.6668,92
88.9509,82
89.235,93
89.5191,94
89.8032,112
89.9954,93

File: OPCM- 21 D 1.csv
Angle,Intensity
5.99618,797
6.28027,782
6.56436,667
6.84845,584
7.13254,547
7.41664,540
7.70073,513
7.98482,530
8.26891,453
8.553,474
8.83709,438
9.12119,471
9.40528,422
9.68937,416
9.97346,406
10.2576,416
10.5416,388
10.8257,372
11.1098,365
11.3939,348
11.678,328
11.9621,344
12.2462,334
12.5303,307
12.8144,314
13.0985,271
13.3826,273
13.6667,502
13.9507,347
14.2348,268
14.5189,264
14.803,279
15.0871,228
15.3712,224
15.6553,250
15.9394,240
16.2235,231
16.5076,205
16.7917,203
17.0757,251
17.3598,235
17.6439,228
17.928,276
18.2121,270
18.4962,219
18.7803,212
19.0644,205
19.3485,205
19.6326,209
19.9167,203
20.2008,207
20.4848,189
20.7689,448
21.053,214
21.3371,206
21.6212,174
21.9053,195
22.1894,155
22.4735,175
22.7576,172
23.0417,226
23.3258,189
23.6099,342
23.8939,180
24.178,189
24.4621,185
24.7462,240
25.0303,165
25.3144,185
25.5985,449
25.8826,162
26.1667,198
26.4508,257
26.7349,6295
27.019,209
27.303,286
27.5871,503
27.8712,409
28.1553,186
28.4394,203
28.7235,300
29.0076,179
29.2917,301
29.5758,294
29.8599,273
30.144,257
30.4281,186
30.7121,158
30.9962,169
31.2803,166
31.5644,172
31.8485,153
32.1326,300
32.4167,217
32.7008,222
32.9849,151
33.269,160
33.5531,167
33.8372,193
34.1212,536
34.4053,207
34.6894,165
34.9735,163
35.2576,179
35.5417,111
35.8258,116
36.1099,123
36.394,126
36.6781,130
36.9622,132
37.2463,142
37.5303,136
37.8144,122
38.0985,97
38.3826,123
38.6667,136
38.9508,123
39.2349,135
39.519,973
39.8031,167
40.0872,118
40.3713,145
40.6553,107
40.9394,132
41.2235,136
41.5076,105
41.7917,195
42.0758,122
42.3599,134
42.644,240
42.9281,124
43.2122,133
43.4963,109
43.7804,111
44.0644,134
44.3485,120
44.6326,118
44.9167,88
45.2008,94
45.4849,128
45.769,200
46.0531,115
46.3372,102
46.6213,96
46.9054,142
47.1895,272
47.4735,141
47.7576,116
48.0417,108
48.3258,99
48.6099,124
48.894,107
49.1781,143
49.4622,104
49.7463,114
50.0304,141
50.3145,532
50.5986,226
50.8826,225
51.1667,100
51.4508,90
51.7349,114
52.019,104
52.3031,94
52.5872,112
52.8713,108
53.1554,160
53.4395,99
53.7236,109
54.0077,90
54.2917,111
54.5758,143
54.8599,143
55.144,184
55.4281,119
55.7122,97
55.9963,98
56.2804,100
56.5645,113
56.8486,87
57.1327,104
57.4168,116
57.7008,99
57.9849,88
58.269,107
58.5531,114
58.8372,96
59.1213,105
59.4054,109
59.6895,100
59.9736,1527
60.2577,144
60.5418,102
60.8259,111
61.1099,96
61.394,124
61.6781,100
61.9622,84
62.2463,94
62.5304,112
62.8145,130
63.0986,91
63.3827,82
63.6668,108
63.9509,83
64.235,110
64.519,93
64.8031,98
65.0872,77
65.3713,94
65.6554,108
65.9395,82
66.2236,96
66.5077,79
66.7918,80
67.0759,104
67.36,102
67.644,103
67.9281,158
68.2122,132
68.4963,99
68.7804,86
69.0645,87
69.3486,83
69.6327,82
69.9168,93
70.2009,64
70.485,80
70.7691,73
71.0531,98
71.3372,89
71.6213,89
71.9054,113
72.1895,168
72.4736,120
72.7577,79
73.0418,96
73.3259,93
73.61,89
73.8941,97
74.1782,91
74.4622,93
74.7463,94
75.0304,107
75.3145,86
75.5986,69
75.8827,100
76.1668,103
76.4509,96
76.735,76
77.0191,77
77.3032,78
77.5873,72
77.8713,86
78.1554,77
78.4395,68
78.7236,72
79.0077,100
79.2918,77
79.5759,77
79.86,102
80.1441,92
80.4282,82
80.7123,62
80.9964,75
81.2804,101
81.5645,83
81.8486,90
82.1327,80
82.4168,80
82.7009,83
82.985,66
83.2691,76
83.5532,72
83.8373,112
84.1214,104
84.4055,71
84.6895,104
84.9736,103
85.2577,94
85.5418,78
85.8259,86
86.11,78
86.3941,91
86.6782,75
86.9623,64
87.2464,79
87.5305,99
87.8146,79
88.0986,75
88.3827,123
88.6668,94
88.9509,68
89.235,72
89.5191,68
89.8032,67
89.9954,75